File: Isoconversional/www/example_nano-Ti_tga.txt
2424-0.5.TXT HR0.49Kmin ML-18.75% TtaDa ExpDat_02406_Ti HR0.98Kmin ML-18.46% TtaDa ExpDat_02368_Ti HR10.56Kmin ML-19.13% TtaDa ExpDat_02431_Ti HR22.43Kmin ML-19.1% TtaDa
108.3888 8702.947 -0.0005921 1.927e-06 133.193 3700.2 -5.142e-08 2.581e-07 132.878 679.6002 -0.0007604 7.253e-06 148.1320  508.0002  1.561e-03 -3.784e-05
110.1224 8922.426 -0.0001704 1.795e-06 134.8913 3806.106 7.54e-05 1.985e-06 135.1456 692.6344 -0.0006413 1.442e-05 150.1623  513.9871  1.095e-03 -1.563e-04
111.8357 9141.906 0.0001395 8.949e-07 136.6091 3912.011 0.0005432 7.234e-06 137.4406 705.6685 -0.0002469 5.273e-05 152.2385  519.9741 -5.895e-05 -1.590e-04
113.5713 9361.386 0.0002151 -9.609e-08 138.3111 4017.917 0.001636 1.336e-05 139.7185 718.7027 0.0006261 6.978e-05 154.2960  525.9610 -4.192e-04  4.325e-05
115.2865 9580.865 0.0001311 -6.246e-07 140.0225 4123.822 0.003282 1.689e-05 142.0394 731.7369 0.001366 3.793e-05 156.3987  531.9479 -1.026e-05  2.494e-05
117.0226 9800.345 -5.817e-05 -1.147e-06 141.739 4229.728 0.004728 8.069e-06 144.3506 744.7711 0.001419 -3.704e-05 158.4788  537.9349 -1.896e-04 -5.248e-05
118.7646 10019.825 -0.0003201 -9.034e-07 143.4477 4335.633 0.005025 -1.311e-06 146.6758 757.8052 0.0005577 -8.173e-05 160.5869  543.9218 -4.240e-04 -1.668e-05
120.4887 10239.304 -0.0003484 7.8e-07 145.1604 4441.539 0.004775 -1.994e-06 149.0085 770.8394 -0.0001745 -9.938e-06 162.6997  549.9087 -4.539e-04 -4.279e-06
122.2097 10458.784 3.62e-05 2.622e-06 146.8772 4547.444 0.004766 2.199e-06 151.3339 783.8736 0.0004047 9.512e-05 164.8212  555.8957 -3.033e-04  7.819e-05
123.9195 10678.264 0.0007341 3.52e-06 148.5877 4653.35 0.005234 6.493e-06 153.677 796.9077 0.002014 0.0001384 166.9601  561.8826  4.936e-04  1.777e-04
125.6548 10897.743 0.001542 3.946e-06 150.332 4759.255 0.006105 9.845e-06 156.0266 809.9419 0.003715 0.0001148 169.1020  567.8695  1.549e-03  1.456e-04
127.3922 11117.223 0.002475 4.445e-06 152.0397 4865.161 0.007305 1.268e-05 158.3817 822.9761 0.005046 9.214e-05 171.2518  573.8565  1.835e-03 -6.615e-05
129.1346 11336.703 0.003404 3.684e-06 153.7462 4971.066 0.008734 1.376e-05 160.7229 836.0103 0.006098 6.827e-05 173.3991  579.8434  1.601e-03  7.333e-05
130.8699 11556.182 0.004005 1.808e-06 155.467 5076.972 0.01007 1.107e-05 163.0996 849.0444 0.006815 3.89e-05 175.5640  585.8303  2.926e-03  3.510e-04
132.6426 11775.662 0.004244 6.194e-07 157.2105 5182.877 0.01108 9.162e-06 165.4445 862.0786 0.006942 -1.876e-05 177.7444  591.8173  5.028e-03  2.930e-04
134.3688 11995.142 0.004407 1.212e-06 158.9363 5288.783 0.0124 1.856e-05 167.8256 875.1128 0.006676 -1.586e-06 179.9557  597.8042  6.497e-03  2.212e-04
136.1379 12214.621 0.004885 3.249e-06 160.6594 5394.688 0.01539 3.64e-05 170.1836 888.1469 0.007531 0.0001389 182.1638  603.7911  7.956e-03  2.735e-04
137.8766 12434.101 0.005882 5.957e-06 162.386 5500.594 0.01971 4.382e-05 172.5645 901.1811 0.009896 0.0002089 184.3684  609.7781  9.401e-03  1.932e-04
139.6248 12653.581 0.00753 9.053e-06 164.1119 5606.499 0.02439 4.29e-05 174.9296 914.2153 0.01271 0.0002203 186.5798  615.7650  1.068e-02  2.732e-04
141.3941 12873.06 0.009729 1.029e-05 165.8382 5712.405 0.02835 2.919e-05 177.3189 927.2494 0.01573 0.0002446 188.8123  621.7519  1.290e-02  4.647e-04
143.163 13092.54 0.01182 8.493e-06 167.5515 5818.311 0.03052 1.464e-05 179.701 940.2836 0.01901 0.0002484 191.0504  627.7389  1.591e-02  5.183e-04
144.924 13312.02 0.01342 6.263e-06 169.2756 5924.216 0.03196 1.45e-05 182.0817 953.3178 0.02193 0.0002021 193.3147  633.7258  1.906e-02  5.330e-04
146.6845 13531.499 0.01471 5.9e-06 171.0117 6030.122 0.03383 2.142e-05 184.487 966.352 0.02449 0.0001992 195.5529  639.7127  2.228e-02  5.471e-04
148.4601 13750.979 0.01618 7.862e-06 172.7362 6136.027 0.03655 2.993e-05 186.9078 979.3861 0.02723 0.000211 197.8399  645.6997  2.570e-02  6.018e-04
150.2281 13970.459 0.01829 1.161e-05 174.435 6241.933 0.0401 3.639e-05 189.3032 992.4203 0.02973 0.0001764 200.0971  651.6866  2.950e-02  6.655e-04
152.0118 14189.938 0.02129 1.552e-05 176.1761 6347.838 0.04404 3.691e-05 191.7037 1005.45 0.03198 0.0001689 202.3907  657.6735  3.359e-02  6.965e-04
153.7647 14409.418 0.02491 1.681e-05 177.9119 6453.744 0.04783 3.471e-05 194.1254 1018.49 0.03417 0.000178 204.6576  663.6604  3.787e-02  7.369e-04
155.5478 14628.898 0.02848 1.558e-05 179.6347 6559.649 0.05151 3.567e-05 196.5302 1031.52 0.03686 0.0002364 206.9360  669.6474  4.241e-02  7.660e-04
157.325 14848.377 0.03165 1.305e-05 181.3717 6665.555 0.05555 4.103e-05 198.9397 1044.557 0.04026 0.0002742 209.2478  675.6343  4.682e-02  7.110e-04
159.0968 15067.857 0.03417 9.909e-06 183.0959 6771.46 0.06023 4.701e-05 201.345 1057.59 0.04389 0.0002913 211.5373  681.6212  5.120e-02  7.794e-04
160.8787 15287.337 0.03615 8.767e-06 184.8491 6877.366 0.06531 4.822e-05 203.7608 1070.63 0.04801 0.0003414 213.8376  687.6082  5.635e-02  9.118e-04
162.6555 15506.816 0.03817 9.865e-06 186.5933 6983.271 0.07033 4.636e-05 206.1742 1083.66 0.05273 0.0003755 216.1393  693.5951  6.155e-02  8.231e-04
164.4157 15726.296 0.04055 1.19e-05 188.327 7089.177 0.07517 4.543e-05 208.5898 1096.69 0.05765 0.0003774 218.4346  699.5820  6.650e-02  8.640e-04
166.2055 15945.776 0.04348 1.495e-05 190.0659 7195.082 0.08008 4.791e-05 210.9857 1109.73 0.06263 0.0003941 220.7652  705.5690  7.224e-02  1.043e-03
167.9583 16165.255 0.0471 1.792e-05 191.8129 7300.988 0.08539 5.211e-05 213.4023 1122.762 0.06791 0.0004074 223.0796  711.5559  7.871e-02  1.098e-03
169.7471 16384.735 0.05125 1.965e-05 193.5423 7406.893 0.091 5.306e-05 215.8084 1135.8 0.07316 0.0004002 225.3990  717.5428  8.514e-02  1.036e-03
171.515 16604.215 0.05561 1.988e-05 195.289 7512.799 0.0965 5.063e-05 218.2289 1148.83 0.07846 0.0004184 227.7241  723.5298  9.104e-02  9.537e-04
173.2869 16823.694 0.05996 1.976e-05 197.0334 7618.704 0.1017 4.754e-05 220.6263 1161.86 0.08413 0.0004514 230.0453  729.5167  9.689e-02  1.022e-03
175.0478 17043.174 0.06436 2.059e-05 198.779 7724.61 0.1066 4.477e-05 223.0336 1174.9 0.08998 0.0004349 232.3812  735.5036  1.034e-01  1.138e-03
176.8185 17262.654 0.06905 2.222e-05 200.5222 7830.516 0.1112 4.389e-05 225.4229 1187.93 0.09568 0.000455 234.7151  741.4906  1.103e-01  1.167e-03
178.5961 17482.133 0.07403 2.286e-05 202.2679 7936.421 0.116 4.765e-05 227.8421 1200.967 0.1019 0.0004999 237.0387  747.4775  1.174e-01  1.226e-03
180.3737 17701.613 0.07907 2.312e-05 204.014 8042.327 0.1214 5.439e-05 230.2502 1214 0.1088 0.0005633 239.4020  753.4644  1.251e-01  1.320e-03
182.1493 17921.093 0.08418 2.344e-05 205.7314 8148.232 0.1275 6.065e-05 232.6474 1227.04 0.1166 0.000639 241.7334  759.4514  1.331e-01  1.350e-03
183.9328 18140.572 0.08937 2.385e-05 207.4868 8254.138 0.1342 6.499e-05 235.0584 1240.07 0.1253 0.0006757 244.0762  765.4383  1.411e-01  1.310e-03
185.72 18360.052 0.09464 2.401e-05 209.2455 8360.043 0.1412 6.63e-05 237.4556 1253.1 0.1343 0.0007023 246.4261  771.4252  1.490e-01  1.355e-03
187.4937 18579.532 0.0998 2.298e-05 210.9972 8465.949 0.1481 6.447e-05 239.854 1266.14 0.1433 0.0006687 248.7794  777.4122  1.574e-01  1.448e-03
189.283 18799.011 0.1049 2.339e-05 212.7424 8571.854 0.1548 6.056e-05 242.2342 1279.17 0.1517 0.0006243 251.1255  783.3991  1.662e-01  1.473e-03
191.0696 19018.491 0.1102 2.539e-05 214.4753 8677.76 0.161 5.631e-05 244.6452 1292.21 0.1598 0.0006346 253.4672  789.3860  1.751e-01  1.513e-03
192.8538 19237.971 0.1159 2.652e-05 216.2179 8783.665 0.1668 5.526e-05 247.0478 1305.24 0.1681 0.0006355 255.8263  795.3730  1.841e-01  1.486e-03
194.6486 19457.45 0.1218 2.724e-05 217.967 8889.571 0.173 6.321e-05 249.445 1318.27 0.1763 0.0006228 258.1661  801.3599  1.927e-01  1.363e-03
196.4407 19676.93 0.1279 2.803e-05 219.704 8995.476 0.1806 8.124e-05 251.8298 1331.31 0.1847 0.0006776 260.5329  807.3468  2.008e-01  1.391e-03
198.2462 19896.41 0.1341 2.85e-05 221.4629 9101.382 0.1897 8.867e-05 254.2117 1344.34 0.194 0.0007438 262.8993  813.3338  2.096e-01  1.538e-03
200.0437 20115.889 0.1404 2.916e-05 223.2024 9207.287 0.1991 8.705e-05 256.6274 1357.38 0.2041 0.0008089 265.2533  819.3207  2.190e-01  1.580e-03
201.8354 20335.369 0.1469 2.942e-05 224.9468 9313.193 0.2077 7.297e-05 259.0168 1370.41 0.2149 0.0008351 267.6119  825.3076  2.284e-01  1.565e-03
203.6251 20554.849 0.1533 2.929e-05 226.6906 9419.098 0.2146 6.11e-05 261.3917 1383.45 0.2255 0.0007724 269.9286  831.2946  2.377e-01  1.549e-03
205.4187 20774.328 0.1599 3.163e-05 228.4292 9525.004 0.2212 6.449e-05 263.7842 1396.48 0.235 0.0006997 272.2771  837.2815  2.471e-01  1.616e-03
207.2273 20993.808 0.1673 3.524e-05 230.1809 9630.909 0.2285 7.257e-05 266.1702 1409.51 0.244 0.0006852 274.6575  843.2684  2.573e-01  1.795e-03
209.0165 21213.288 0.1752 3.65e-05 231.9154 9736.815 0.2364 7.343e-05 268.5532 1422.55 0.2532 0.0007396 277.0130  849.2554  2.685e-01  1.933e-03
210.8094 21432.767 0.1832 3.665e-05 233.6709 9842.721 0.2437 6.486e-05 270.9468 1435.58 0.2634 0.000814 279.3796  855.2423  2.800e-01  1.848e-03
212.6006 21652.247 0.1912 3.607e-05 235.4064 9948.626 0.2503 6.224e-05 273.326 1448.62 0.2741 0.000835 281.7385  861.2292  2.907e-01  1.776e-03
214.3875 21871.727 0.1991 3.602e-05 237.1418 10054.532 0.2572 6.906e-05 275.7029 1461.65 0.285 0.0008369 284.0965  867.2162  3.016e-01  1.865e-03
216.1806 22091.206 0.207 3.642e-05 238.8702 10160.437 0.2651 8.011e-05 278.0656 1474.68 0.296 0.0008522 286.4553  873.2031  3.130e-01  1.936e-03
217.973 22310.686 0.2151 3.729e-05 240.6381 10266.343 0.274 8.767e-05 280.4441 1487.72 0.3072 0.000863 288.8089  879.1900  3.246e-01  1.949e-03
219.774 22530.166 0.2234 3.849e-05 242.3813 10372.248 0.2836 9.304e-05 282.819 1500.753 0.3186 0.0008891 291.1665  885.1770  3.365e-01  2.023e-03
221.5587 22749.645 0.232 3.924e-05 244.1165 10478.154 0.2937 9.886e-05 285.2058 1513.79 0.3307 0.00097 293.5064  891.1639  3.486e-01  1.980e-03
223.3538 22969.125 0.2407 4.059e-05 245.8377 10584.059 0.3044 0.0001004 287.5597 1526.82 0.3437 0.001009 295.8608  897.1508  3.599e-01  1.779e-03
225.1364 23188.605 0.2498 4.218e-05 247.5945 10689.965 0.3148 9.671e-05 289.937 1539.86 0.3565 0.0009497 298.2251  903.1378  3.702e-01  1.718e-03
226.9426 23408.084 0.2591 4.229e-05 249.3407 10795.87 0.3248 9.141e-05 292.2988 1552.89 0.3684 0.0008844 300.5613  909.1247  3.811e-01  1.959e-03
228.724 23627.564 0.2683 4.126e-05 251.0854 10901.776 0.3343 8.768e-05 294.6529 1565.92 0.3797 0.0008534 302.9138  915.1116  3.934e-01  2.114e-03
230.5094 23847.044 0.2772 4.026e-05 252.8263 11007.681 0.3435 8.63e-05 297.003 1578.958 0.3909 0.0008681 305.2443  921.0986  4.062e-01  2.157e-03
232.2947 24066.523 0.286 3.986e-05 254.5745 11113.587 0.3525 8.528e-05 299.3657 1591.99 0.4024 0.0008961 307.5971  927.0855  4.189e-01  2.052e-03
234.085 24286.003 0.2948 4.098e-05 256.3142 11219.492 0.3616 8.53e-05 301.7351 1605.03 0.4146 0.000992 309.9191  933.0724  4.307e-01  1.897e-03
235.8808 24505.483 0.3041 4.36e-05 258.048 11325.398 0.3707 8.689e-05 304.0802 1618.06 0.4284 0.001132 312.2769  939.0594  4.420e-01  1.930e-03
237.6672 24724.962 0.314 4.584e-05 259.8008 11431.303 0.38 9.049e-05 306.4309 1631.09 0.4436 0.001169 314.6171  945.0463  4.541e-01  2.106e-03
239.4519 24944.442 0.3241 4.65e-05 261.5374 11537.209 0.3899 9.543e-05 308.7786 1644.13 0.4584 0.001092 316.9535  951.0332  4.671e-01  2.220e-03
241.2419 25163.921 0.3344 4.733e-05 263.2825 11643.114 0.4002 9.985e-05 311.129 1657.163 0.4722 0.001027 319.2631  957.0201  4.801e-01  2.111e-03
243.0406 25383.401 0.3449 4.803e-05 265.0254 11749.02 0.4109 0.0001017 313.4607 1670.2 0.4856 0.001049 321.6028  963.0071  4.925e-01  2.047e-03
244.8254 25602.881 0.3554 4.717e-05 266.7765 11854.926 0.4217 0.0001003 315.7951 1683.23 0.4993 0.001039 323.9375  968.9940  5.047e-01  2.021e-03
246.6164 25822.36 0.3656 4.622e-05 268.5028 11960.831 0.4321 9.642e-05 318.1557 1696.27 0.5127 0.001021 326.2564  974.9809  5.168e-01  2.016e-03
248.4079 26041.84 0.3757 4.622e-05 270.2521 12066.737 0.4421 9.413e-05 320.4766 1709.3 0.5258 0.000988 328.5535  980.9679  5.290e-01  2.053e-03
250.2052 26261.32 0.3861 4.839e-05 271.9817 12172.642 0.4521 9.41e-05 322.8104 1722.33 0.5384 0.0009483 330.9044  986.9548  5.412e-01  2.047e-03
251.9819 26480.799 0.3969 5.026e-05 273.7262 12278.548 0.4622 9.798e-05 325.1411 1735.368 0.5507 0.0009417 333.2128  992.9417  5.538e-01  2.129e-03
253.7765 26700.279 0.4081 5.177e-05 275.4716 12384.453 0.473 0.0001052 327.4723 1748.4 0.5629 0.0009255 335.5079  998.9287  5.662e-01  2.026e-03
255.5767 26919.759 0.4196 5.282e-05 277.1968 12490.359 0.4843 0.0001081 329.7856 1761.44 0.575 0.0009586 337.8312 1004.92  5.780e-01  1.906e-03
257.3718 27139.238 0.4312 5.243e-05 278.9449 12596.264 0.4956 0.0001043 332.1153 1774.47 0.5884 0.001075 340.1139 1010.9  5.893e-01  1.882e-03
259.1709 27358.718 0.4425 5.101e-05 280.6917 12702.17 0.5064 1e-04 334.4282 1787.5 0.6022 0.001036 342.4151 1016.89  6.005e-01  1.855e-03
260.9695 27578.198 0.4536 5.016e-05 282.4225 12808.075 0.517 0.0001005 336.7538 1800.54 0.6151 0.0009507 344.7233 1022.88  6.116e-01  1.873e-03
262.7608 27797.677 0.4646 5.029e-05 284.1595 12913.981 0.5277 0.0001026 339.0674 1813.57 0.6275 0.0009465 347.0210 1028.86  6.231e-01  1.960e-03
264.5574 28017.157 0.4757 5.029e-05 285.9043 13019.886 0.5386 0.0001015 341.3772 1826.61 0.6396 0.0009043 349.3085 1034.85  6.346e-01  1.854e-03
266.3756 28236.637 0.4867 5.073e-05 287.6377 13125.792 0.5492 9.997e-05 343.6709 1839.64 0.6511 0.0008756 351.5787 1040.84  6.452e-01  1.728e-03
268.1722 28456.116 0.4979 5.093e-05 289.3747 13231.697 0.5598 0.0001002 345.9761 1852.68 0.6625 0.0008698 353.8796 1046.82  6.557e-01  1.772e-03
269.9227 28675.596 0.5091 5.066e-05 291.0979 13337.603 0.5704 0.0001002 348.2822 1865.71 0.6737 0.0008434 356.1608 1052.81  6.664e-01  1.784e-03
271.756 28895.076 0.5202 5.13e-05 292.8392 13443.508 0.581 9.933e-05 350.5787 1878.74 0.6847 0.0008458 358.4321 1058.8  6.771e-01  1.815e-03
273.5236 29114.555 0.5316 5.222e-05 294.5634 13549.414 0.5915 9.808e-05 352.8779 1891.78 0.6957 0.0008453 360.7115 1064.78  6.881e-01  1.827e-03
275.3131 29334.035 0.5431 5.288e-05 296.3168 13655.32 0.6018 9.841e-05 355.1823 1904.81 0.7065 0.000806 362.9885 1070.77  6.984e-01  1.583e-03
277.0913 29553.515 0.5547 5.224e-05 298.0484 13761.225 0.6124 0.0001003 357.4591 1917.85 0.7167 0.0007529 365.2512 1076.76  7.071e-01  1.360e-03
278.8649 29772.994 0.566 5.093e-05 299.778 13867.131 0.6231 0.0001013 359.7391 1930.88 0.7262 0.0007295 367.5102 1082.75  7.153e-01  1.424e-03
280.6663 29992.474 0.577 4.956e-05 301.4933 13973.036 0.6336 9.53e-05 362.0348 1943.91 0.736 0.0007688 369.7850 1088.73  7.243e-01  1.574e-03
282.4388 30211.954 0.5878 4.914e-05 303.2393 14078.942 0.643 8.292e-05 364.307 1956.95 0.7463 0.0008196 372.0322 1094.72  7.340e-01  1.629e-03
284.2329 30431.433 0.5987 5.022e-05 304.9643 14184.847 0.6515 8.136e-05 366.5851 1969.98 0.7572 0.0008427 374.2981 1100.71  7.435e-01  1.534e-03
286.0223 30650.913 0.6099 5.144e-05 306.6881 14290.753 0.6607 9.276e-05 368.8817 1983.02 0.768 0.0007913 376.5345 1106.69  7.522e-01  1.375e-03
287.7965 30870.393 0.6212 5.104e-05 308.4182 14396.658 0.6711 0.0001019 371.1487 1996.05 0.7776 0.0006793 378.7960 1112.68  7.600e-01  1.246e-03
289.5951 31089.872 0.6323 5.055e-05 310.1413 14502.564 0.682 0.0001027 373.44 2009.09 0.786 0.0006287 381.0397 1118.67  7.674e-01  1.243e-03
291.3797 31309.352 0.6434 5.038e-05 311.8746 14608.469 0.6928 0.0001024 375.7161 2022.12 0.7942 0.0006345 383.2734 1124.65  7.750e-01  1.302e-03
293.1758 31528.832 0.6544 4.962e-05 313.6021 14714.375 0.7036 0.0001019 377.9739 2035.154 0.8025 0.0006407 385.4953 1130.64  7.828e-01  1.297e-03
294.9621 31748.311 0.6653 5.005e-05 315.3306 14820.28 0.7143 9.798e-05 380.2354 2048.19 0.8108 0.0006288 387.7487 1136.63  7.905e-01  1.251e-03
296.742 31967.791 0.6764 5.072e-05 317.0714 14926.186 0.7243 9.127e-05 382.5208 2061.22 0.8189 0.0006165 389.9848 1142.62  7.978e-01  1.207e-03
298.5389 32187.271 0.6874 4.942e-05 318.8033 15032.091 0.7335 8.299e-05 384.7958 2074.26 0.827 0.0006184 392.2249 1148.6  8.050e-01  1.216e-03
300.3403 32406.75 0.6979 4.628e-05 320.5329 15137.997 0.742 7.771e-05 387.0403 2087.29 0.8349 0.0005954 394.4497 1154.59  8.126e-01  1.306e-03
302.0859 32626.23 0.7078 4.408e-05 322.2666 15243.902 0.7502 7.826e-05 389.3193 2100.32 0.8424 0.0005582 396.6712 1160.58  8.204e-01  1.295e-03
303.8864 32845.71 0.7174 4.399e-05 323.9834 15349.808 0.7586 7.924e-05 391.5737 2113.359 0.8493 0.0004978 398.8916 1166.56  8.279e-01  1.190e-03
305.6722 33065.189 0.7271 4.368e-05 325.7097 15455.713 0.7668 7.551e-05 393.836 2126.39 0.8556 0.0004775 401.1257 1172.55  8.348e-01  1.142e-03
307.4572 33284.669 0.7367 4.459e-05 327.4442 15561.619 0.7745 7.062e-05 396.1041 2139.43 0.862 0.0005113 403.3370 1178.54  8.419e-01  1.245e-03
309.2312 33504.149 0.7467 4.644e-05 329.1682 15667.525 0.782 6.994e-05 398.3563 2152.46 0.8692 0.0005902 405.5461 1184.52  8.493e-01  1.170e-03
311.0158 33723.628 0.757 4.658e-05 330.9107 15773.43 0.7894 7e-05 400.6151 2165.5 0.8765 0.0005065 407.7650 1190.51  8.559e-01  1.052e-03
312.7893 33943.108 0.7671 4.54e-05 332.6327 15879.336 0.7967 6.963e-05 402.8674 2178.53 0.8822 0.0003666 409.9795 1196.5  8.621e-01  1.039e-03
314.5728 34162.588 0.7768 4.31e-05 334.3667 15985.241 0.8045 7.932e-05 405.1191 2191.564 0.887 0.0004106 412.1949 1202.48  8.683e-01  1.021e-03
316.3489 34382.067 0.786 4.036e-05 336.0944 16091.147 0.8139 9.766e-05 407.3707 2204.6 0.8933 0.0005456 414.3912 1208.47  8.741e-01  9.257e-04
318.1666 34601.547 0.7945 3.779e-05 337.8287 16197.052 0.8245 9.606e-05 409.6197 2217.63 0.9007 0.0005706 416.5975 1214.46  8.795e-01  8.818e-04
319.9409 34821.027 0.8028 3.818e-05 339.5549 16302.958 0.8332 6.473e-05 411.8807 2230.67 0.9074 0.0004471 418.7979 1220.45  8.848e-01  8.830e-04
321.7316 35040.506 0.8114 4.003e-05 341.2823 16408.863 0.8382 3.593e-05 414.1301 2243.7 0.9127 0.0003814 421.0072 1226.43  8.903e-01  9.601e-04
323.5096 35259.986 0.8203 4.066e-05 342.9982 16514.769 0.8419 3.7e-05 416.3718 2256.73 0.9178 0.0003924 423.2008 1232.42  8.963e-01  1.044e-03
325.3 35479.466 0.8291 3.966e-05 344.7257 16620.674 0.8467 5.503e-05 418.616 2269.769 0.9227 0.0003746 425.3952 1238.41  9.024e-01  9.781e-04
327.0824 35698.945 0.8375 3.614e-05 346.4532 16726.58 0.8533 6.73e-05 420.8573 2282.8 0.9277 0.0003772 427.5854 1244.39  9.078e-01  8.333e-04
328.8726 35918.425 0.8448 3.041e-05 348.1723 16832.485 0.8606 6.918e-05 423.106 2295.84 0.9322 0.0003173 429.7826 1250.38  9.127e-01  8.253e-04
330.6491 36137.905 0.8511 2.777e-05 349.9216 16938.391 0.8678 6.784e-05 425.344 2308.87 0.936 0.0002622 431.9697 1256.37  9.176e-01  8.086e-04
332.4469 36357.384 0.8571 2.726e-05 351.6444 17044.296 0.8749 6.561e-05 427.5827 2321.91 0.9394 0.0002797 434.1538 1262.35  9.225e-01  8.047e-04
334.2143 36576.864 0.8631 2.789e-05 353.3741 17150.202 0.8816 6.013e-05 429.8206 2334.94 0.9435 0.0003599 436.3376 1268.34  9.272e-01  7.625e-04
335.989 36796.344 0.8694 2.866e-05 355.1281 17256.107 0.8876 5.367e-05 432.0614 2347.97 0.9485 0.0003796 438.5116 1274.33  9.314e-01  6.473e-04
337.772 37015.823 0.8757 2.865e-05 356.8298 17362.013 0.893 4.868e-05 434.2912 2361.01 0.953 0.0003194 440.6905 1280.31  9.353e-01  6.696e-04
339.5444 37235.303 0.882 2.903e-05 358.5749 17467.918 0.898 4.538e-05 436.5174 2374.04 0.957 0.000281 442.8786 1286.3  9.394e-01  6.925e-04
341.3427 37454.783 0.8884 2.958e-05 360.3037 17573.824 0.9028 4.581e-05 438.75 2387.08 0.9603 0.0002324 445.0476 1292.29  9.436e-01  6.944e-04
343.1242 37674.262 0.8949 2.884e-05 362.028 17679.73 0.9078 4.919e-05 440.9598 2400.11 0.963 0.0001798 447.2180 1298.28  9.476e-01  6.293e-04
344.9765 37893.742 0.901 2.726e-05 363.7565 17785.635 0.9132 5.191e-05 443.2037 2413.14 0.965 0.0001281 449.3946 1304.26  9.510e-01  5.280e-04
346.7365 38113.222 0.9069 2.638e-05 365.4767 17891.541 0.9188 5.417e-05 445.4321 2426.18 0.9665 0.000112 451.5559 1310.25  9.541e-01  5.360e-04
348.5218 38332.701 0.9126 2.584e-05 367.2072 17997.446 0.9246 5.413e-05 447.6483 2439.21 0.9681 0.0001304 453.7153 1316.24  9.575e-01  6.040e-04
350.3462 38552.181 0.9181 2.411e-05 368.9134 18103.352 0.93 4.545e-05 449.8693 2452.25 0.9698 0.0001184 455.8807 1322.22  9.613e-01  6.347e-04
352.1572 38771.661 0.9232 2.196e-05 370.638 18209.257 0.9338 2.689e-05 452.0821 2465.28 0.9713 0.0001355 458.0345 1328.21  9.648e-01  4.907e-04
353.9338 38991.14 0.9278 1.959e-05 372.356 18315.163 0.936 1.793e-05 454.2766 2478.32 0.9735 0.0001912 460.1898 1334.2  9.671e-01  3.530e-04
355.7336 39210.62 0.9318 1.767e-05 374.0589 18421.068 0.9382 2.698e-05 456.5135 2491.35 0.9761 0.0002024 462.3275 1340.18  9.696e-01  4.602e-04
357.5218 39430.1 0.9357 1.828e-05 375.7783 18526.974 0.9419 3.984e-05 458.7184 2504.38 0.9791 0.0002708 464.4690 1346.17  9.726e-01  5.400e-04
359.2936 39649.579 0.94 2.048e-05 377.5066 18632.879 0.9462 4.077e-05 460.9374 2517.42 0.9824 0.0001988 466.6214 1352.16  9.758e-01  4.921e-04
361.0828 39869.059 0.9446 2.098e-05 379.2341 18738.785 0.9503 3.674e-05 463.1316 2530.45 0.9838 1.88e-05 468.7484 1358.14  9.782e-01  3.123e-04
362.8468 40088.539 0.949 1.965e-05 380.9453 18844.69 0.954 3.271e-05 465.3423 2543.49 0.9833 -6.886e-05 470.8980 1364.13  9.797e-01  2.224e-04
364.5819 40308.018 0.9532 1.848e-05 382.6601 18950.596 0.9573 3.055e-05 467.56 2556.52 0.9827 -2.765e-06 473.0316 1370.12  9.810e-01  2.168e-04
366.436 40527.498 0.9572 1.758e-05 384.3813 19056.501 0.9605 2.957e-05 469.7676 2569.555 0.9834 0.0001049 475.1484 1376.11  9.823e-01  1.925e-04
368.1351 40746.978 0.9609 1.71e-05 386.0983 19162.407 0.9636 2.756e-05 471.9603 2582.59 0.9849 0.0001001 477.2870 1382.09  9.833e-01  1.531e-04
369.9444 40966.457 0.9647 1.659e-05 387.8057 19268.312 0.9663 2.388e-05 474.1716 2595.62 0.9858 3.532e-05 479.4136 1388.08  9.842e-01  1.752e-04
371.7381 41185.937 0.9681 1.438e-05 389.5296 19374.218 0.9686 2.04e-05 476.3662 2608.66 0.9862 4.353e-05 481.5311 1394.07  9.851e-01  7.644e-05
373.4592 41405.417 0.971 1.182e-05 391.2415 19480.123 0.9708 2.133e-05 478.584 2621.69 0.9872 0.0001045 483.6518 1400.05  9.852e-01  2.630e-05
375.3024 41624.896 0.9734 1.052e-05 392.9609 19586.029 0.9733 2.71e-05 480.7962 2634.73 0.9886 9.624e-05 485.7691 1406.04  9.858e-01  1.572e-04
376.9972 41844.376 0.9756 1.016e-05 394.6706 19691.935 0.9766 3.573e-05 482.9863 2647.76 0.9895 6.15e-05 487.8803 1412.03  9.869e-01  1.690e-04
378.8888 42063.856 0.9779 1.079e-05 396.3746 19797.84 0.9807 3.707e-05 485.1919 2660.79 0.9905 8.751e-05 489.9903 1418.01  9.878e-01  1.657e-04
380.605 42283.335 0.9804 1.169e-05 398.1147 19903.746 0.9837 1.85e-05 487.4226 2673.83 0.9916 6.882e-05 492.1044 1424  9.887e-01  1.085e-04
382.3542 42502.815 0.983 1.132e-05 399.8327 20009.651 0.9843 -5.288e-06 489.6299 2686.86 0.9923 4.852e-05 494.2106 1429.99  9.893e-01  1.446e-04
384.169 42722.295 0.9852 9.065e-06 401.5409 20115.557 0.9832 -1.193e-05 491.8376 2699.9 0.9931 8.089e-05 496.3169 1435.97  9.906e-01  2.545e-04
385.942 42941.774 0.987 7.412e-06 403.2492 20221.462 0.9825 1.054e-07 494.028 2712.93 0.9941 6.022e-05 498.4278 1441.96  9.924e-01  3.640e-04
387.695 43161.254 0.9886 7.686e-06 404.9615 20327.368 0.9834 1.38e-05 496.2533 2725.965 0.9944 -1.06e-05 500.5360 1447.95  9.942e-01  1.387e-04
389.4165 43380.734 0.9904 8.858e-06 406.6664 20433.273 0.985 1.629e-05 498.4608 2739 0.9941 -1.115e-05 502.6444 1453.94  9.943e-01 -1.470e-05
391.3087 43600.213 0.9924 8.327e-06 408.3919 20539.179 0.9867 1.623e-05 500.6859 2752.03 0.9946 7.17e-05 504.7556 1459.92  9.943e-01 -1.080e-05
392.9389 43819.693 0.9938 4.319e-06 410.1046 20645.084 0.9884 1.594e-05 502.8811 2765.07 0.9957 8.902e-05 506.8526 1465.91  9.942e-01 -4.535e-06
394.685 44039.173 0.9945 2.177e-06 411.8223 20750.99 0.9901 1.5e-05 505.0825 2778.1 0.9966 4.877e-05 508.9745 1471.9  9.944e-01  6.415e-05
396.4546 44258.652 0.9949 2.348e-06 413.5409 20856.895 0.9915 1.222e-05 507.2917 2791.14 0.997 3.625e-06 511.0798 1477.88  9.948e-01  7.931e-05
398.2042 44478.132 0.9955 3.2e-06 415.251 20962.801 0.9927 1.077e-05 509.4956 2804.17 0.9966 -5.319e-05 513.2006 1483.87  9.952e-01  3.158e-05
400.1088 44697.612 0.9963 4.01e-06 416.9712 21068.706 0.994 1.354e-05 511.7159 2817.2 0.9959 -4.798e-05 515.3071 1489.86  9.955e-01  9.117e-05
401.8227 44917.091 0.9972 4.192e-06 418.6689 21174.612 0.9959 2.486e-05 513.9361 2830.24 0.9956 4.225e-06 517.4152 1495.84  9.959e-01  3.660e-05
403.6217 45136.571 0.998 2.45e-06 420.3902 21280.517 0.9993 3.745e-05 516.1497 2843.27 0.996 5.394e-05 519.5267 1501.83  9.960e-01  1.766e-05
405.417 45356.051 0.9983 -8.034e-08 422.0906 21386.423 1.002 1.541e-05 518.3589 2856.31 0.9968 4.451e-05 521.6285 1507.82  9.966e-01  1.854e-04
407.2213 45575.53 0.9981 -1.388e-06 423.8257 21492.328 1.002 -2.164e-05 520.58 2869.34 0.9971 2.549e-05 523.7618 1513.8  9.976e-01  1.120e-04
409.0148 45795.01 0.9978 -8.779e-07 425.5537 21598.234 0.9989 -3.17e-05 522.7957 2882.38 0.9976 4.651e-05 525.8861 1519.79  9.979e-01 -3.241e-06
410.803 46014.49 0.9979 2.428e-06 427.2582 21704.14 0.9964 -1.426e-05 525.0195 2895.41 0.998 4.855e-06 527.9929 1525.78  9.978e-01 -3.269e-05
412.5804 46233.969 0.9987 3.623e-06 428.9968 21810.045 0.9958 2.586e-06 527.2417 2908.44 0.9976 -7.204e-05 530.1198 1531.77  9.978e-01  7.238e-05
414.3535 46453.449 0.9992 1.39e-06 430.7107 21915.951 0.9965 7.005e-06 529.4517 2921.48 0.9967 -4.191e-05 532.2396 1537.75  9.988e-01  2.203e-04
416.1364 46672.929 0.9993 -6.913e-07 432.4282 22021.856 0.997 2.351e-06 531.6732 2934.51 0.9969 7.933e-05 534.3572 1543.74  9.998e-01  8.850e-05
417.9356 46892.408 0.9991 -1.173e-06 434.1506 22127.762 0.9969 -2.722e-06 533.9022 2947.55 0.9981 8.586e-05 536.4672 1549.73  1.000e+00  2.573e-06
419.7045 47111.888 0.9989 -6.381e-07 435.8668 22233.667 0.9967 1.058e-06 536.1277 2960.58 0.9991 6.956e-05 538.5970 1555.71  9.999e-01 -3.268e-05
421.475 47331.368 0.9988 -1.27e-07 437.6055 22339.573 0.9973 9.074e-06 538.3519 2973.61 1 5.883e-05 540.6962 1561.7  9.998e-01  4.539e-06
423.248 47550.847 0.9989 9.345e-07 439.3229 22445.478 0.9985 1.183e-05 540.563 2986.65 1 -4.504e-06 542.8222 1567.69  9.997e-01 -2.137e-05
425.008 47770.327 0.9992 2.504e-06 441.0519 22551.384 0.9996 8.727e-06 542.7898 2999.68 1 -2.137e-05 544.9422 1573.67  9.999e-01  8.793e-05
426.7787 47989.807 0.9999 3.582e-06 442.7704 22657.289 1 -2.874e-06 544.9943 3012.72 0.9999 1.243e-06 547.0537 1579.66  1.001e+00  8.763e-05
428.5364 48209.286 1.001 2.329e-06 444.4848 22763.195 0.9991 -1.286e-05 547.2102 3025.751 1 3.362e-05 549.1720 1585.65  1.001e+00 -7.708e-06
430.3464 48428.766 1.001 5.191e-09 446.2201 22869.1 0.9977 -1.154e-05 549.4387 3038.79 1.001 2.752e-05 551.2846 1591.63  1.001e+00 -2.643e-05
432.1111 48648.246 1.001 -1.641e-06 447.9392 22975.006 0.997 -4.097e-07 551.6477 3051.82 1.001 -3.082e-06 553.4037 1597.62  1.001e+00  2.199e-05
433.8731 48867.725 1 -1.847e-06 449.6494 23080.911 0.9977 1.364e-05 553.8658 3064.85 1 -4.261e-05 555.5232 1603.61  1.001e+00  7.114e-05
435.636 49087.205 0.9999 -9.237e-07 451.3787 23186.817 0.9995 1.798e-05 556.0787 3077.89 1 -2.301e-05 557.6282 1609.6  1.001e+00 -3.705e-05
437.4166 49306.685 0.9999 6.656e-07 453.1213 23292.722 1.001 1.254e-05 558.2971 3090.92 1 5.79e-05 559.7467 1615.58  1.001e+00 -5.154e-05
439.2107 49526.164 1 2.211e-06 454.8279 23398.628 1.002 1.903e-06 560.5057 3103.956 1.001 8.672e-05 561.8698 1621.57  1.001e+00  5.595e-05
440.987 49745.644 1.001 1.795e-06 456.5633 23504.533 1.002 -6.062e-06 562.7232 3116.99 1.002 7.229e-05 563.9857 1627.56  1.001e+00  8.653e-05
442.7475 49965.124 1.001 -2.067e-07 458.2879 23610.439 1.001 -3.956e-06 564.9481 3130.02 1.003 -1.75e-05 566.0922 1633.54  1.001e+00 -2.362e-05
444.5363 50184.603 1.001 -7.986e-07 460.0211 23716.345 1.001 5.199e-06 567.171 3143.06 1.002 -9.316e-05 568.2140 1639.53  1.001e+00 -8.127e-05
446.3213 50404.083 1.001 -4.414e-08 461.7534 23822.25 1.002 1.317e-05 569.3766 3156.09 1.001 -8.555e-05 570.3304 1645.52  1.001e+00  5.773e-05
448.0763 50623.563 1.001 6.042e-08 463.4541 23928.156 1.003 6.843e-06 571.6098 3169.13 1 -8.262e-06 572.4470 1651.5  1.001e+00 -3.525e-06
449.8954 50843.042 1.001 1.255e-07 465.1996 24034.061 1.003 -1.265e-05 573.8123 3182.161 1.001 8.576e-05 574.5679 1657.49  1.001e+00 -9.727e-05
451.6461 51062.522 1.001 1.113e-06 466.9358 24139.967 1.001 -1.891e-05 576.0261 3195.2 1.002 6.762e-05 576.6769 1663.48  1.001e+00  5.010e-06
453.4208 51282.002 1.001 2.641e-06 468.6465 24245.872 0.9996 -8.757e-06 578.262 3208.23 1.002 -3.772e-05 578.7886 1669.47  1.001e+00  1.030e-05
455.2084 51501.481 1.002 2.764e-06 470.3585 24351.778 0.9995 3.847e-06 580.4867 3221.26 1.001 -8.401e-05 580.9033 1675.45  1.001e+00 -4.663e-05
456.9796 51720.961 1.002 1.211e-06 472.104 24457.683 0.9999 3.497e-06 582.6951 3234.3 1 -2.597e-05 583.0151 1681.44  1.000e+00 -8.954e-05
458.7905 51940.441 1.002 -1.651e-06 473.833 24563.589 1 -8.184e-07 584.9094 3247.33 1 4.709e-05 585.1320 1687.43  9.999e-01  5.618e-05
460.5544 52159.92 1.002 -4.122e-06 475.5641 24669.494 0.9998 -4.436e-06 587.1267 3260.366 1.001 2.962e-05 587.2417 1693.41  1.000e+00  8.241e-05
462.342 52379.4 1.001 -4.37e-06 477.291 24775.4 0.9992 -5.342e-06 589.334 3273.4 1.001 1.141e-05 589.3540 1699.4  1.001e+00  2.402e-05