File: Model_Linear/www/example_tnaa_tga_2-20.txt
1.Temperature[°C] 1.Time[s] 1.Conversion[-] 1.Conversion_rate[1/s] 2.Temperature[°C] 2.Time[s] 2.Conversion[-] 2.Conversion_rate[1/s] 3.Temperature[°C] 3.Time[s] 3.Conversion[-] 3.Conversion_rate[1/s] 4.Temperature[°C] 4.Time[s] 4.Conversion[-] 4.Conversion_rate[1/s]
78.416 1323.6 -0.0002287 9.931e-05 78.771 634.9998 0.001014 3.922e-05 81.307 435 0.0001468 0.0001443 76.663 279.4002 -0.0008481 0.0002377
78.74968 1333.39 0.0003434 1.652e-05 79.19996 638.9717 0.0009304 -6.756e-05 81.66421 436.6734 0.0004289 0.0001736 77.01362 280.4082 -0.0008045 -0.0001399
79.04211 1343.18 0.0001039 -3.19e-05 79.65651 642.9435 0.0006175 5.71e-05 82.04969 438.3467 0.0006351 9.065e-06 77.38348 281.4163 -0.0009252 -6.928e-05
79.38274 1352.97 0.0002014 5.449e-05 80.1037 646.9154 0.0009532 -2.9e-05 82.40446 440.0201 0.0003917 -0.0001999 77.7369 282.4243 -0.0006203 -3.557e-05
79.70911 1362.76 0.0001398 -7.579e-05 80.54609 650.8872 0.0003324 -4.279e-05 82.77639 441.6935 0.0007649 0.0003206 78.097 283.4324 -0.0005887 0.000656
80.00453 1372.55 -0.0003162 -5.869e-06 80.9862 654.8591 0.000587 4.195e-05 83.12693 443.3668 0.0007544 -0.0003023 78.46018 284.4404 -0.0007012 -0.0006033
80.33638 1382.34 1.844e-05 5.296e-05 81.4272 658.831 0.0004824 1.916e-05 83.50788 445.0402 0.000424 -0.0002171 78.80415 285.4484 -1.279e-05 0.001412
80.65111 1392.13 0.0006284 3.373e-05 81.87129 662.8028 0.0005919 -3.977e-05 83.88208 446.7136 0.0006589 0.0001923 79.18166 286.4565 -0.0007079 -0.000981
80.96185 1401.92 0.0007146 1.09e-05 82.31914 666.7747 0.0003676 4.369e-05 84.25489 448.3869 0.000522 -0.0002109 79.56785 287.4645 -0.0009778 -8.999e-05
81.28971 1411.71 0.0003043 -8.562e-05 82.78173 670.7466 0.0004167 -6.594e-05 84.64009 450.0603 0.0006199 0.0001454 79.92795 288.4726 5.136e-05 0.001138
81.60578 1421.499 -7.177e-05 3.695e-05 83.21168 674.7184 0.0001994 7.36e-06 85.00283 451.7337 0.0008468 -0.0001166 80.30044 289.4806 -0.0004281 -0.001288
81.90875 1431.289 0.0002777 7.08e-06 83.67165 678.6903 4.895e-07 1.559e-05 85.37124 453.407 0.0002531 -0.0001309 80.66477 290.4886 -0.0002815 0.0002478
82.23322 1441.079 0.0002669 -2.337e-07 84.10767 682.6621 7.482e-05 -2.326e-05 85.74696 455.0804 0.0005063 0.0002221 81.0355 291.4967 0.0002396 0.0009325
82.56253 1450.869 0.0002647 -1.943e-06 84.56254 686.634 -0.0002374 1.539e-05 86.11691 456.7538 0.0004576 -0.0004184 81.40192 292.5047 9.548e-05 -0.0009475
82.87643 1460.659 0.0002912 2.217e-05 84.99969 690.6059 0.0001727 7.654e-05 86.49317 458.4271 4.313e-05 2.241e-05 81.7806 293.5127 -0.0003383 -5.275e-05
83.17844 1470.449 0.0006319 2.384e-05 85.4402 694.5777 0.0002141 -4.729e-05 86.86589 460.1005 0.000304 0.0001481 82.16037 294.5208 -0.0003515 0.0001568
83.50219 1480.239 0.0007579 6.338e-05 85.88896 698.5496 0.0002107 -4.238e-05 87.23577 461.7739 0.0006341 6.738e-05 82.51432 295.5288 -0.0002826 0.0004609
83.82221 1490.029 0.001478 3.393e-05 86.32468 702.5214 -0.000138 -5.836e-05 87.60758 463.4472 0.0004353 -6.202e-05 82.89554 296.5369 0.0004464 0.0005058
84.11762 1499.819 0.0008624 -7.445e-05 86.76709 706.4933 0.0003927 3.439e-05 87.99066 465.1206 0.0004858 -0.0001138 83.28348 297.5449 -9.154e-05 -0.000612
84.46025 1509.609 0.0006726 8.544e-06 87.20838 710.4652 -0.0001163 -0.0001872 88.36271 466.794 0.0002386 -5.305e-05 83.64172 298.5529 -0.0003123 -0.00047
84.78197 1519.399 0.0004761 -8.262e-05 87.64432 714.437 -0.0002347 -2.142e-05 88.73946 468.4673 -2.622e-05 -0.0003732 84.01786 299.561 -0.0007255 0.0007263
85.08958 1529.189 -0.0001854 -2.38e-05 88.09334 718.4089 0.000281 0.0001584 89.1251 470.1407 0.0001584 0.0003439 84.42268 300.569 -0.0002256 -0.0001238
85.3875 1538.979 0.0001721 9.481e-05 88.52089 722.3807 0.0001443 -0.0002706 89.49349 471.8141 0.0003395 -0.0002689 84.80533 301.5771 -0.0002486 8.742e-07
85.72108 1548.769 0.0005434 -5.041e-05 88.96819 726.3526 -0.000221 -3.931e-06 89.87314 473.4874 0.000222 7.892e-06 85.17548 302.5851 -0.0002485 -1.033e-06
86.04464 1558.559 0.0004175 6.361e-05 89.40503 730.3245 -0.0001638 9.975e-05 90.25708 475.1608 0.0001767 -0.0001029 85.56127 303.5931 -0.00028 -0.0001214
86.36678 1568.349 0.00102 -1.71e-05 89.84625 734.2963 0.0004485 -2.296e-05 90.62814 476.8342 0.0004145 0.0003257 85.94842 304.6012 0.0001445 0.0007607
86.68078 1578.139 0.0006406 -2.305e-05 90.2733 738.2682 7.258e-05 -6.002e-05 90.99911 478.5075 0.0004648 -0.0002403 86.33046 305.6092 0.0003713 -4.202e-05
86.99643 1587.929 0.0009047 8.307e-05 90.72852 742.2401 0.0002657 6.701e-05 91.38482 480.1809 0.0001722 0.0001011 86.73373 306.6173 0.0008366 0.0005775
87.31233 1597.719 0.001728 4.879e-05 91.14631 746.2119 0.0005921 4.669e-05 91.76678 481.8543 0.0007495 0.0003321 87.13559 307.6253 8.825e-05 -0.000439
87.63729 1607.509 0.001876 -1.168e-05 91.58447 750.1838 0.0005753 -6.098e-05 92.14883 483.5276 0.001092 3.026e-05 87.51605 308.6333 0.0002984 -0.0004561
87.95881 1617.298 0.001918 2.747e-05 92.00123 754.1556 0.0002321 -5.28e-05 92.51418 485.201 0.001034 -9.849e-05 87.9169 309.6414 0.0005943 0.001026
88.26607 1627.088 0.002398 5.852e-05 92.43487 758.1275 0.0001872 2.623e-05 92.89782 486.8744 0.00103 0.0001725 88.29839 310.6494 0.001086 -0.000343
88.58842 1636.878 0.002686 3.8e-07 92.85844 762.0994 0.0005087 7.744e-05 93.2725 488.5477 0.001342 2.718e-05 88.69062 311.6575 0.0004785 -0.0004692
88.90844 1646.668 0.002678 -9.999e-08 93.28549 766.0712 0.0005998 -1.626e-05 93.66611 490.2211 0.00148 0.0001905 89.09993 312.6655 0.0003955 0.0003291
89.228 1656.458 0.002516 -4.084e-05 93.7043 770.0431 0.0005781 -6.124e-06 94.05005 491.8945 0.001722 -5.066e-05 89.4874 313.6735 0.001085 0.0002507
89.53525 1666.248 0.002522 2.029e-05 94.13424 774.0149 0.00083 8.712e-05 94.41624 493.5678 0.001937 0.0001992 89.87423 314.6816 0.001062 0.0001253
89.86138 1676.038 0.002767 2.818e-05 94.55329 777.9868 0.001044 4.61e-05 94.80167 495.2412 0.002007 -0.0001639 90.2846 315.6896 0.0006905 -0.0009535
90.17665 1685.828 0.003078 7.83e-06 95.00473 781.9587 0.001355 4.636e-05 95.20057 496.9146 0.002046 8.803e-05 90.67701 316.6977 0.001045 0.001861
90.50111 1695.618 0.003065 -1.775e-07 95.43134 785.9305 0.001577 0.0001011 95.57388 498.5879 0.002143 0.0001453 91.09219 317.7057 0.0007391 -0.00167
90.82575 1705.408 0.003048 3.069e-06 95.86608 789.9024 0.001808 -2.167e-05 95.97675 500.2613 0.00245 4.139e-05 91.49714 318.7137 0.0008485 0.0006335
91.12785 1715.198 0.003327 3.48e-05 96.28656 793.8743 0.001824 5.743e-05 96.36278 501.9347 0.002579 0.0001751 91.8846 319.7218 0.001036 8.035e-05
91.45111 1724.988 0.003542 2.67e-05 96.71438 797.8461 0.002163 5.281e-05 96.7362 503.608 0.00285 -8.473e-05 92.28356 320.7298 0.001604 0.0002626
91.75651 1734.778 0.003845 2.205e-05 97.14934 801.818 0.002183 -6.634e-07 97.13031 505.2814 0.003029 0.0003675 92.69297 321.7378 0.002117 0.0006154
92.05363 1744.568 0.00403 3.095e-05 97.58052 805.7898 0.002138 -3.879e-05 97.50711 506.9548 0.003619 8.555e-05 93.10237 322.7459 0.001418 -0.0006242
92.38635 1754.358 0.004982 0.0001416 98.01912 809.7617 0.002677 0.0002374 97.90924 508.6281 0.003594 -1.41e-06 93.50453 323.7539 0.001615 0.0003356
92.70869 1764.148 0.005982 4.219e-05 98.42825 813.7336 0.003398 6.636e-06 98.30516 510.3015 0.003548 2.974e-05 93.92236 324.762 0.001869 0.0009504
93.02745 1773.938 0.006268 2.589e-05 98.85447 817.7054 0.003385 6.08e-05 98.67885 511.9749 0.004084 0.0004302 94.32753 325.77 0.003008 0.0001709
93.35478 1783.728 0.006733 6.785e-05 99.28673 821.6773 0.003691 0.0001063 99.05946 513.6482 0.004357 -5.944e-05 94.74516 326.778 0.002966 5.856e-05
93.68552 1793.518 0.007405 4.735e-05 99.71295 825.6491 0.004511 0.0002808 99.47011 515.3216 0.004343 6.747e-09 95.11951 327.7861 0.002679 -0.001504
94.03341 1803.308 0.008273 0.0001317 100.137 829.621 0.005019 7.48e-05 99.8549 516.995 0.004343 -1.091e-05 95.53923 328.7941 0.002395 0.000852
94.36738 1813.097 0.009474 7.979e-05 100.563 833.5929 0.005363 0.0001209 100.239 518.6683 0.004403 0.0002755 95.94278 329.8022 0.002954 -0.0001204
94.68462 1822.887 0.01014 4.057e-05 100.99 837.5647 0.005768 0.0001317 100.624 520.3417 0.005045 0.0002237 96.36797 330.8102 0.003367 0.0007501
95.02518 1832.677 0.01057 6.362e-05 101.408 841.5366 0.006554 0.0002404 101.02 522.0151 0.005094 -1.94e-05 96.78589 331.8182 0.003608 -0.0001312
95.3596 1842.467 0.01143 0.0001531 101.811 845.5084 0.007197 0.0003122 101.412 523.6884 0.005078 0.0001262 97.20203 332.8263 0.003882 0.0007447
95.70643 1852.257 0.01337 0.0001711 102.242 849.4803 0.008462 0.0002083 101.803 525.3618 0.005671 0.0003498 97.60487 333.8343 0.004274 -0.0001144
96.03269 1862.047 0.01418 2.551e-05 102.655 853.4522 0.008959 0.0002684 102.206 527.0352 0.005955 0.0003447 98.03038 334.8424 0.004549 0.0007541
96.35447 1871.837 0.01471 0.0001021 103.07 857.424 0.009917 0.0002059 102.592 528.7085 0.006586 0.0001497 98.46117 335.8504 0.00461 -0.001294
96.69841 1881.627 0.01622 0.0002251 103.504 861.3959 0.01073 0.0002593 102.986 530.3819 0.006571 2.694e-06 98.88542 336.8584 0.003992 0.0006006
97.01948 1891.417 0.0182 0.0001465 103.903 865.3678 0.01185 0.0002493 103.388 532.0553 0.006846 0.0003914 99.31792 337.8665 0.00426 -5.429e-05
97.34844 1901.207 0.01908 8.555e-05 104.303 869.3396 0.01266 0.0002028 103.7634 533.7286 0.007581 0.0003679 99.73935 338.8745 0.004309 0.0003868
97.69093 1910.997 0.02012 0.0001148 104.737 873.3115 0.01375 0.0002891 104.164 535.402 0.008171 0.000417 100.149 339.8826 0.004922 -0.000133
98.02259 1920.787 0.02108 0.0001158 105.144 877.2833 0.01497 0.0002946 104.556 537.0754 0.008481 0.0001005 100.579 340.8906 0.004315 -0.0005974
98.32748 1930.577 0.0225 0.0001465 105.549 881.2552 0.01627 0.0004396 104.944 538.7487 0.009004 0.0004649 101.0145 341.8986 0.004441 0.0005922
98.67645 1940.367 0.02359 0.0001042 105.955 885.2271 0.01823 0.0004177 105.353 540.4221 0.009491 0.000224 101.432 342.9067 0.004931 -0.0001109
99.01008 1950.157 0.02469 0.0001158 106.369 889.1989 0.01966 0.0003525 105.742 542.0955 0.01006 0.0005351 101.852 343.9147 0.005041 0.0008505
99.33884 1959.947 0.02581 0.0001305 106.778 893.1708 0.02113 0.0003904 106.145 543.7688 0.0107 0.0002408 102.281 344.9227 0.006217 -0.0001093
99.67929 1969.737 0.02709 0.0001162 107.186 897.1426 0.02279 0.0004211 106.526 545.4422 0.01106 0.0003932 102.717 345.9308 0.005587 -0.0005414
100.003 1979.527 0.02825 0.0001513 107.555 901.1145 0.0246 0.0004797 106.919 547.1156 0.01203 0.0004202 103.131 346.9388 0.00555 0.0007165
100.349 1989.317 0.02983 0.000166 107.977 905.0864 0.02706 0.0006887 107.308 548.7889 0.01235 0.0002947 103.574 347.9469 0.006756 0.000998
100.669 1999.107 0.03141 0.0001728 108.383 909.0582 0.0293 0.0004001 107.723 550.4623 0.01305 0.0002887 104.017 348.9549 0.006825 3.996e-05
100.99 2008.896 0.03375 0.0002513 108.788 913.0301 0.0312 0.0005273 108.109 552.1357 0.01399 0.0006259 104.431 349.9629 0.006828 -1.655e-05
101.332 2018.686 0.03596 0.0001947 109.187 917.002 0.0334 0.0005504 108.5052 553.809 0.01476 0.0001927 104.872 350.971 0.006859 0.0007596
101.662 2028.476 0.03805 0.0002014 109.567 920.9738 0.03558 0.0005657 108.915 555.4824 0.01547 0.0004747 105.309 351.979 0.008073 0.0008156
101.992 2038.266 0.0403 0.0002609 109.979 924.9457 0.03803 0.0007029 109.301 557.1558 0.01598 0.0002644 105.739 352.9871 0.008228 0.0006638
102.313 2048.056 0.04286 0.0002461 110.376 928.9175 0.04086 0.0006844 109.703 558.8291 0.01676 0.0005523 106.161 353.9951 0.008791 0.0002016
102.663 2057.846 0.04523 0.0002403 110.773 932.8894 0.04366 0.0007597 110.105 560.5025 0.01749 0.0004558 106.586 355.0031 0.008722 0.0001633
102.963 2067.636 0.04766 0.0002877 111.159 936.8613 0.04688 0.000895 110.499 562.1759 0.01826 0.0004162 107.044 356.0112 0.009285 0.0006288
103.319 2077.426 0.05037 0.0002594 111.55 940.8331 0.05051 0.0009008 110.899 563.8492 0.01923 0.000633 107.475 357.0192 0.009398 -0.0001088
103.66 2087.216 0.05281 0.0002695 111.95 944.805 0.05407 0.0009457 111.288 565.5226 0.02041 0.0009803 107.919 358.0273 0.00954 0.0006205
103.982 2097.006 0.05596 0.0003386 112.338 948.7768 0.0579 0.0009527 111.692 567.196 0.022 0.0007108 108.351 359.0353 0.01008 7.811e-05
104.303 2106.796 0.05896 0.0002771 112.721 952.7487 0.06178 0.001066 112.09 568.8693 0.02303 0.0007201 108.783 360.0433 0.01004 -4.014e-06
104.639 2116.586 0.0621 0.000369 113.117 956.7206 0.06624 0.001104 112.48 570.5427 0.02429 0.0008293 109.224 361.0514 0.01019 0.0006482
104.962 2126.376 0.06562 0.0003457 113.508 960.6924 0.07039 0.001039 112.8626 572.2161 0.02553 0.0007578 109.665 362.0594 0.01071 6.961e-05
105.293 2136.166 0.06903 0.0004014 113.897 964.6643 0.07474 0.001218 113.254 573.8894 0.02696 0.0009684 110.1138 363.0675 0.01065 3.132e-05
105.6249 2145.956 0.07309 0.0003914 114.289 968.6361 0.0796 0.001179 113.665 575.5628 0.02857 0.001287 110.547 364.0755 0.0111 0.0009701
105.945 2155.746 0.07672 0.0003751 114.66 972.608 0.08422 0.001247 114.051 577.2362 0.03095 0.001396 110.996 365.0835 0.01248 0.0008366
106.293 2165.536 0.08045 0.0004127 115.062 976.5799 0.08933 0.001267 114.459 578.9095 0.03293 0.001264 111.44 366.0916 0.01257 2.961e-05
106.591 2175.326 0.08478 0.000455 115.456 980.5517 0.09444 0.001337 114.846 580.5829 0.03511 0.001267 111.8806 367.0996 0.01367 0.001191
106.951 2185.116 0.08896 0.0004233 115.825 984.5236 0.09993 0.001432 115.229 582.2563 0.03722 0.001354 112.323 368.1076 0.0139 0.0003456
107.285 2194.906 0.0931 0.0004267 116.218 988.4955 0.106 0.001523 115.625 583.9296 0.03968 0.001575 112.76 369.1157 0.01441 0.0005341
107.583 2204.695 0.09739 0.0004632 116.6073 992.4673 0.1117 0.001398 116.034 585.603 0.04265 0.001972 113.218 370.1237 0.01547 0.001014
107.915 2214.485 0.1019 0.0004674 116.965 996.4392 0.118 0.001631 116.437 587.2764 0.04561 0.001621 113.668 371.1318 0.01625 0.001056
108.265 2224.275 0.1071 0.0006145 117.369 1000.411 0.1243 0.001496 116.818 588.9497 0.04832 0.00167 114.099 372.1398 0.01715 -0.0004134
108.593 2234.065 0.1128 0.0005055 117.733 1004.38 0.1305 0.001622 117.216 590.6231 0.05145 0.002147 114.541 373.1478 0.01779 0.0016
108.909 2243.855 0.1175 0.0005036 118.12 1008.35 0.1372 0.001732 117.609 592.2965 0.05511 0.002261 114.994 374.1559 0.0194 0.001137
109.2519 2253.645 0.1228 0.000581 118.509 1012.33 0.1438 0.001567 118.013 593.9698 0.05914 0.002577 115.448 375.1639 0.02018 0.000685
109.575 2263.435 0.1286 0.000591 118.879 1016.3 0.1505 0.001907 118.406 595.6432 0.06361 0.00275 115.907 376.172 0.02077 0.0007198
109.897 2273.225 0.1344 0.0005869 119.251 1020.27 0.1593 0.0026 118.797 597.3166 0.06825 0.002783 116.359 377.18 0.02198 0.001146
110.205 2283.015 0.1404 0.0006545 119.642 1024.24 0.1701 0.002542 119.199 598.9899 0.0728 0.002538 116.809 378.188 0.02268 0.001952
110.565 2292.805 0.1469 0.0006568 120.001 1028.21 0.1791 0.001931 119.599 600.6633 0.07681 0.00232 117.251 379.1961 0.02513 0.0007906
110.877 2302.595 0.1535 0.0007166 120.371 1032.19 0.1867 0.001879 120.002 602.3367 0.08053 0.002041 117.711 380.2041 0.02628 0.00146
111.208 2312.385 0.1607 0.0007591 120.758 1036.16 0.1954 0.002515 120.38 604.0101 0.08424 0.0026 118.157 381.2122 0.02738 0.001022
111.555 2322.175 0.1686 0.0008275 121.136 1040.13 0.2061 0.002562 120.784 605.6834 0.08871 0.002533 118.618 382.2202 0.02885 0.001368
111.879 2331.965 0.1763 0.000783 121.5042 1044.1 0.2159 0.002441 121.186 607.3568 0.0929 0.002614 119.0622 383.2282 0.02988 0.00145
112.209 2341.755 0.184 0.0007855 121.887 1048.07 0.2258 0.002636 121.566 609.0302 0.09766 0.003142 119.508 384.2363 0.0321 0.002536
112.531 2351.545 0.1917 0.0007873 122.239 1052.05 0.2364 0.002581 121.988 610.7035 0.1029 0.003051 119.966 385.2443 0.03449 0.001943
112.853 2361.335 0.1995 0.0008174 122.601 1056.02 0.2465 0.002685 122.388 612.3769 0.1079 0.003004 120.425 386.2524 0.03628 0.001845
113.1917 2371.125 0.2076 0.0008148 122.979 1059.989 0.258 0.002856 122.7768 614.0503 0.1133 0.003425 120.894 387.2604 0.03882 0.003435
113.51 2380.915 0.2157 0.0008406 123.363 1063.96 0.2689 0.002755 123.165 615.7236 0.1192 0.003742 121.327 388.2684 0.04175 0.002093
113.845 2390.705 0.2242 0.0009158 123.719 1067.93 0.2804 0.002948 123.555 617.397 0.1256 0.003777 121.774 389.2765 0.04403 0.00304
114.176 2400.494 0.2333 0.000954 124.093 1071.9 0.2922 0.003044 123.968 619.0704 0.1319 0.003737 122.243 390.2845 0.04715 0.002817
114.502 2410.284 0.2429 0.001043 124.474 1075.88 0.3044 0.003086 124.354 620.7437 0.1382 0.003947 122.698 391.2926 0.05073 0.004418
114.835 2420.074 0.253 0.001022 124.819 1079.85 0.317 0.003237 124.7594 622.4171 0.1454 0.004303 123.176 392.3006 0.05516 0.004198
115.161 2429.864 0.2636 0.001154 125.19 1083.82 0.33 0.003298 125.157 624.0905 0.1522 0.003833 123.637 393.3086 0.05978 0.004906
115.492 2439.654 0.2744 0.001019 125.553 1087.792 0.3432 0.003378 125.56 625.7638 0.1596 0.004701 124.092 394.3167 0.06511 0.005751
115.827 2449.444 0.2844 0.001059 125.92 1091.76 0.357 0.00356 125.98 627.4372 0.1675 0.004824 124.558 395.3247 0.07146 0.006569
116.149 2459.234 0.2956 0.001214 126.294 1095.74 0.371 0.003339 126.362 629.1106 0.1758 0.005088 125.03 396.3327 0.07743 0.005773
116.478 2469.024 0.3072 0.001128 126.655 1099.71 0.3845 0.003541 126.766 630.7839 0.1844 0.005289 125.485 397.3408 0.08362 0.006536
116.817 2478.814 0.3176 0.001021 127.006 1103.68 0.3992 0.003743 127.166 632.4573 0.1939 0.005915 125.945 398.3488 0.09013 0.006805
117.139 2488.604 0.3282 0.00116 127.386 1107.65 0.414 0.003735 127.58 634.1307 0.2034 0.005669 126.408 399.3569 0.09725 0.00694
117.463 2498.394 0.3399 0.001195 127.757 1111.62 0.429 0.003896 127.97 635.804 0.2133 0.006149 126.8939 400.3649 0.1034 0.005629
117.798 2508.184 0.3515 0.001207 128.104 1115.595 0.4454 0.004087 128.387 637.4774 0.2238 0.006355 127.3555 401.3729 0.1092 0.005976
118.137 2517.974 0.3635 0.001246 128.472 1119.57 0.4609 0.003771 128.809 639.1508 0.2346 0.006513 127.823 402.381 0.1153 0.005825
118.458 2527.764 0.3758 0.001262 128.842 1123.54 0.4769 0.004163 129.19 640.8241 0.2457 0.006836 128.287 403.389 0.1212 0.006331
118.79 2537.554 0.3889 0.001374 129.188 1127.51 0.4933 0.004128 129.597 642.4975 0.2574 0.007169 128.747 404.3971 0.1285 0.007317
119.122 2547.344 0.4024 0.001353 129.543 1131.48 0.5098 0.004206 129.984 644.1709 0.2698 0.007199 129.206 405.4051 0.1345 0.004927
119.449 2557.134 0.4154 0.001343 129.917 1135.45 0.5265 0.004194 130.4 645.8442 0.2816 0.007295 129.688 406.4131 0.1411 0.007337
119.768 2566.924 0.429 0.001431 130.261 1139.43 0.5427 0.003957 130.812 647.5176 0.2946 0.008026 130.154 407.4212 0.1483 0.0071
120.1179 2576.714 0.4428 0.00135 130.624 1143.398 0.5592 0.004338 131.209 649.191 0.3083 0.008364 130.626 408.4292 0.1565 0.008711
120.444 2586.504 0.4557 0.001342 130.975 1147.37 0.5762 0.004286 131.629 650.8643 0.3226 0.008644 131.114 409.4373 0.1649 0.007834
120.766 2596.293 0.47 0.001612 131.324 1151.34 0.5937 0.004527 132.033 652.5377 0.3373 0.00903 131.578 410.4453 0.1732 0.008894
121.092 2606.083 0.4854 0.001505 131.676 1155.31 0.6113 0.004359 132.4335 654.2111 0.3528 0.009417 132.052 411.4533 0.1824 0.009224
121.406 2615.873 0.4999 0.001527 132.036 1159.29 0.6284 0.004318 132.841 655.8844 0.3687 0.009745 132.5566 412.4614 0.1921 0.01055
121.746 2625.663 0.5147 0.001473 132.387 1163.26 0.6458 0.004348 133.241 657.5578 0.3853 0.01006 133.029 413.4694 0.2028 0.01023
122.075 2635.453 0.5292 0.001508 132.735 1167.23 0.6629 0.004295 133.664 659.2312 0.4025 0.01054 133.511 414.4775 0.2135 0.01123
122.404 2645.243 0.5442 0.001565 133.081 1171.2 0.6802 0.004312 134.067 660.9045 0.4203 0.01076 133.987 415.4855 0.2244 0.01053
122.7173 2655.033 0.5592 0.001496 133.427 1175.17 0.697 0.004194 134.4648 662.5779 0.4385 0.01093 134.471 416.4935 0.2356 0.01179
123.063 2664.823 0.5739 0.001533 133.775 1179.14 0.7141 0.004384 134.875 664.2513 0.4572 0.01163 134.96 417.5016 0.2486 0.01316
123.391 2674.613 0.5889 0.001538 134.116 1183.12 0.7308 0.004133 135.288 665.9246 0.4754 0.0103 135.436 418.5096 0.2615 0.01248
123.718 2684.403 0.6041 0.001598 134.476 1187.09 0.7472 0.004189 135.693 667.598 0.4931 0.01169 135.912 419.5176 0.2744 0.01287
124.031 2694.193 0.6198 0.001571 134.8136 1191.06 0.7636 0.004049 136.116 669.2714 0.5129 0.01206 136.398 420.5257 0.2878 0.01366
124.359 2703.983 0.6348 0.001511 135.153 1195.03 0.7795 0.003992 136.513 670.9447 0.5334 0.01225 136.897 421.5337 0.3017 0.01408
124.673 2713.773 0.6498 0.001515 135.479 1199 0.7953 0.003867 136.925 672.6181 0.5534 0.01203 137.376 422.5418 0.3165 0.01501
125.015 2723.563 0.6655 0.001669 135.827 1202.976 0.8099 0.003589 137.337 674.2915 0.5738 0.01223 137.861 423.5498 0.3318 0.01521
125.349 2733.353 0.6817 0.001538 136.167 1206.95 0.8244 0.0037 137.739 675.9648 0.5942 0.01215 138.3529 424.5578 0.3475 0.01596
125.65 2743.143 0.6965 0.001529 136.4998 1210.92 0.839 0.00365 138.154 677.6382 0.6146 0.01222 138.852 425.5659 0.364 0.01552
126.008 2752.933 0.7119 0.001617 136.843 1214.89 0.8534 0.003519 138.567 679.3116 0.6351 0.01227 139.33 426.5739 0.3776 0.01379
126.32 2762.723 0.727 0.001481 137.1814 1218.86 0.8669 0.003298 138.959 680.9849 0.6556 0.01226 139.834 427.582 0.3941 0.01777
126.6473 2772.513 0.7415 0.001493 137.517 1222.84 0.8796 0.003087 139.368 682.6583 0.6765 0.01282 140.326 428.59 0.4129 0.01905
126.966 2782.303 0.7558 0.001468 137.837 1226.81 0.8919 0.003135 139.784 684.3317 0.6973 0.012 140.8141 429.598 0.4312 0.01816
127.293 2792.092 0.7704 0.001486 138.165 1230.779 0.9042 0.002994 140.177 686.005 0.7173 0.01172 141.296 430.6061 0.45 0.01899
127.617 2801.882 0.7845 0.001423 138.476 1234.75 0.9158 0.002997 140.587 687.6784 0.735 0.01012 141.801 431.6141 0.4694 0.01928
127.93 2811.672 0.7984 0.001406 138.812 1238.72 0.9274 0.002769 141 689.3518 0.7534 0.0115 142.298 432.6222 0.489 0.01981
128.257 2821.462 0.812 0.001374 139.143 1242.69 0.9378 0.002515 141.401 691.0251 0.7721 0.01094 142.792 433.6302 0.5092 0.02011
128.587 2831.252 0.8257 0.001413 139.468 1246.67 0.9473 0.002383 141.8096 692.6985 0.7902 0.01067 143.288 434.6382 0.5299 0.02059
128.909 2841.042 0.8388 0.001234 139.798 1250.64 0.9566 0.002234 142.217 694.3719 0.8078 0.01044 143.792 435.6463 0.5504 0.02023
129.2211 2850.832 0.851 0.001309 140.117 1254.61 0.9648 0.001912 142.608 696.0452 0.8253 0.01016 144.2815 436.6543 0.5723 0.0221
129.546 2860.622 0.8641 0.001294 140.432 1258.582 0.972 0.001725 143.003 697.7186 0.8415 0.009302 144.795 437.6624 0.5941 0.0214
129.858 2870.412 0.8758 0.00113 140.761 1262.55 0.9785 0.001549 143.403 699.392 0.8568 0.008995 145.285 438.6704 0.6155 0.02112
130.184 2880.202 0.8874 0.001177 141.071 1266.53 0.9843 0.001416 143.797 701.0653 0.8714 0.00851 145.789 439.6784 0.6372 0.02179
130.492 2889.992 0.8986 0.001097 141.405 1270.5 0.9898 0.001287 144.188 702.7387 0.8853 0.008015 146.273 440.6865 0.6587 0.02114
130.808 2899.782 0.9087 0.0009751 141.706 1274.47 0.9934 0.0006164 144.592 704.4121 0.8983 0.007585 146.783 441.6945 0.6803 0.02174
131.135 2909.572 0.9178 0.0009095 142.019 1278.44 0.9951 0.000323 144.9627 706.0854 0.9108 0.007432 147.289 442.7025 0.702 0.02102
131.462 2919.362 0.9268 0.0009498 142.332 1282.41 0.9962 0.0002321 145.363 707.7588 0.9226 0.006256 147.793 443.7106 0.7234 0.02131
131.779 2929.152 0.9354 0.0008063 142.649 1286.39 0.9968 0.0001188 145.729 709.4322 0.9326 0.006006 148.291 444.7186 0.7444 0.02086
132.101 2938.942 0.9433 0.0009005 142.946 1290.36 0.9973 0.0001235 146.1255 711.1055 0.9431 0.006199 148.785 445.7267 0.7653 0.02033
132.421 2948.732 0.9512 0.0006846 143.254 1294.33 0.9981 0.0001603 146.5071 712.7789 0.9531 0.005697 149.279 446.7347 0.7858 0.01969
132.734 2958.522 0.9571 0.000602 143.556 1298.3 0.9983 -4.733e-05 146.886 714.4523 0.9621 0.005083 149.789 447.7427 0.8028 0.01609
133.047 2968.312 0.9628 0.0005303 143.868 1302.27 0.9983 -5.137e-07 147.268 716.1256 0.9701 0.004508 150.297 448.7508 0.8214 0.01982
133.372 2978.102 0.9677 0.0005066 144.168 1306.24 0.9983 2.518e-06 147.6338 717.799 0.9773 0.004042 150.8 449.7588 0.8403 0.01841
133.689 2987.891 0.9727 0.0004798 144.47 1310.22 0.9987 0.0001865 148.019 719.4724 0.9835 0.003537 151.297 450.7669 0.8588 0.01798
133.982 2997.681 0.9772 0.0004478 144.7799 1314.19 0.9991 1.467e-05 148.385 721.1457 0.9892 0.003191 151.797 451.7749 0.8763 0.01704
134.32 3007.471 0.9815 0.0004044 145.071 1318.16 0.9991 1.3e-08 148.746 722.8191 0.9938 0.002083 152.3083 452.7829 0.8942 0.01765
134.636 3017.261 0.9854 0.0003999 145.382 1322.13 0.9991 4.119e-07 149.112 724.4925 0.9963 0.00102 152.794 453.791 0.9104 0.01513
134.935 3027.051 0.989 0.000304 145.665 1326.1 0.9992 9.146e-05 149.479 726.1658 0.9976 0.0006551 153.3 454.799 0.9256 0.01468
135.273 3036.841 0.992 0.0003254 145.987 1330.08 0.9995 2.129e-05 149.8316 727.8392 0.9983 0.0003868 153.797 455.8071 0.9399 0.01357
135.594 3046.631 0.995 0.0002824 146.295 1334.05 0.9995 -6.286e-07 150.198 729.5126 0.9989 0.0002331 154.292 456.8151 0.9531 0.01292
135.913 3056.421 0.9971 0.0001625 146.603 1338.02 0.9995 -4.951e-07 150.55 731.1859 0.9988 9.219e-05 154.79 457.8231 0.9652 0.01079
136.208 3066.211 0.9982 6.767e-05 146.908 1341.99 0.9995 5.147e-05 150.921 732.8593 0.9994 0.0004288 155.287 458.8312 0.9752 0.009288
136.548 3076.001 0.9984 -2.382e-05 147.208 1345.963 1 0.0001901 151.26 734.5327 0.9997 4.617e-05 155.784 459.8392 0.9839 0.007091
136.876 3085.791 0.9988 6.268e-05 147.512 1349.93 1 -7.994e-06 151.617 736.206 1 0.0001434 156.283 460.8473 0.9895 0.00465
137.187 3095.581 0.9992 -1.723e-05 147.817 1353.91 1 1.225e-14 151.971 737.8794 1 -1.188e-05 156.771 461.8553 0.9932 0.003099
137.517 3105.371 0.9992 7.039e-06 148.118 1357.88 1 1.056e-22 152.315 739.5528 1 3.003e-10 157.264 462.8633 0.9958 0.001839
137.833 3115.161 0.9991 -3.698e-05 148.426 1361.85 1 5.197e-17 152.649 741.2261 1 3.418e-15 157.749 463.8714 0.997 0.0007309
138.151 3124.951 0.9988 -1.118e-06 148.746 1365.82 1 4.141e-07 153.003 742.8995 1 -2.808e-20 158.243 464.8794 0.9976 0.0006867
138.479 3134.741 0.9988 3.578e-08 149.056 1369.79 1 -3.858e-05 153.344 744.5729 1 -1.462e-24 158.726 465.8875 0.9981 0.0003051
138.802 3144.531 0.9988 -6.961e-07 149.368 1373.766 0.9997 -0.0002023 153.701 746.2462 1 2.002e-29 159.218 466.8955 0.9986 0.0005788
139.131 3154.321 0.9988 2.308e-05 149.675 1377.74 0.9995 -4.627e-06 154.029 747.9196 1 1.156e-25 159.685 467.9035 0.9987 -3.223e-05
139.464 3164.111 0.9991 3.237e-05 149.99 1381.71 0.9998 0.0002181 154.363 749.593 1 -1.008e-19 160.172 468.9116 0.9987 -0.0001248
139.789 3173.901 0.9992 1.557e-05 150.306 1385.68 1 1.498e-07 154.715 751.2663 1 -5.347e-15 160.6573 469.9196 0.9991 0.0007134
140.1231 3183.69 0.9995 3.584e-05 150.61 1389.65 1 -1.078e-10 155.0519 752.9397 1 9.318e-11 161.13 470.9276 0.9994 -1.206e-05
140.44 3193.48 0.9998 4.052e-05 150.93 1393.63 1 -4.016e-19 155.38 754.6131 1 -2.871e-05 161.62 471.9357 0.9998 0.0006661
140.78 3203.27 1 1.68e-06 151.247 1397.6 1 -8.042e-08 155.723 756.2864 1 0.0001522 162.1 472.9437 1 -4.889e-06
141.105 3213.06 1 8.572e-06 151.555 1401.569 1 -1.786e-05 156.055 757.9598 1 7.984e-05 162.58 473.9518 1 -1.326e-07
141.438 3222.85 0.9999 -6.353e-05 151.874 1405.54 0.9997 -6.558e-05 156.394 759.6332 1 -1.043e-06 163.062 474.9598 1 1.842e-10
141.774 3232.64 0.9992 -3.342e-05 152.189 1409.51 1 0.0002157 156.728 761.3065 1 -4.366e-09 163.531 475.9678 1 -2.504e-13
142.107 3242.43 0.9995 3.734e-05 152.508 1413.48 1 -1.696e-06 157.054 762.9799 1 1.561e-05 164.012 476.9759 1 3.339e-16
142.4365 3252.22 0.9996 -6.185e-06 152.807 1417.46 1 2.264e-15 157.392 764.6533 1 -0.00022 164.486 477.9839 1 -4.361e-19
142.76 3262.01 0.9997 2.801e-05 153.128 1421.43 1 -2.007e-18 157.729 766.3266 1 -3.215e-05 164.962 478.992 1 5.516e-22
143.092 3271.8 1 6.397e-05 153.448 1425.4 1 6.367e-21 158.076 768 1 9.879e-05 165.423 480 1 -3.207e-24